Folder: delta-melt-data/figure9/perkinelmer_uv/scaf2_tga_gc_ph5.4hsnb

Note: figure9/perkinelmer_uv/readme
m1g_25c_new_at.csv = m1g_25c_new.csv with the middle g bp in context column changed to a

File: 20190805_pH5.4hsnb_scaf2_tga_gc_1.txt
Date : 8/6/2019	Time : 04:19:26
C:\UVWINLAB\CG251U1.SP
25.00	0.5880
25.20	0.5881
25.40	0.5879
25.60	0.5880
25.80	0.5882
26.00	0.5880
26.20	0.5882
26.40	0.5883
26.60	0.5883
26.80	0.5881
27.00	0.5883
27.20	0.5884
27.40	0.5886
27.60	0.5884
27.80	0.5885
28.00	0.5884
28.20	0.5886
28.40	0.5887
28.60	0.5887
28.80	0.5888
29.00	0.5888
29.20	0.5887
29.40	0.5888
29.60	0.5888
29.80	0.5889
30.00	0.5890
30.20	0.5892
30.40	0.5892
30.60	0.5892
30.80	0.5894
31.00	0.5895
31.20	0.5894
31.40	0.5895
31.60	0.5895
31.80	0.5896
32.00	0.5896
32.20	0.5898
32.50	0.5898
32.70	0.5900
33.00	0.5899
33.20	0.5901
33.50	0.5903
33.70	0.5903
34.00	0.5905
34.20	0.5907
34.50	0.5907
34.70	0.5906
35.00	0.5909
35.20	0.5910
35.50	0.5913
35.70	0.5913
36.00	0.5914
36.20	0.5916
36.50	0.5917
36.70	0.5918
37.00	0.5920
37.20	0.5920
37.50	0.5924
37.70	0.5925
38.00	0.5926
38.20	0.5927
38.50	0.5930
38.70	0.5931
39.00	0.5932
39.20	0.5935
39.50	0.5938
39.70	0.5940
40.00	0.5941
40.20	0.5942
40.50	0.5945
40.70	0.5945
41.00	0.5950
41.20	0.5951
41.50	0.5956
41.70	0.5957
42.00	0.5959
42.20	0.5961
42.50	0.5964
42.70	0.5964
43.00	0.5971
43.20	0.5975
43.50	0.5979
43.70	0.5982
44.00	0.5988
44.20	0.5990
44.50	0.5993
44.70	0.5993
45.00	0.6001
45.20	0.6005
45.50	0.6007
45.70	0.6011
46.00	0.6018
46.20	0.6021
46.50	0.6029
46.70	0.6029
47.00	0.6041
47.20	0.6047
47.50	0.6052
47.70	0.6057
48.00	0.6066
48.20	0.6070
48.50	0.6079
48.70	0.6079
49.00	0.6094
49.20	0.6100
49.50	0.6109
49.70	0.6118
50.00	0.6126
50.20	0.6133
50.50	0.6144
50.70	0.6144
51.00	0.6165
51.20	0.6177
51.50	0.6189
51.70	0.6199
52.00	0.6213
52.20	0.6221
52.50	0.6235
52.70	0.6235
53.00	0.6260
53.20	0.6275
53.50	0.6286
53.70	0.6302
54.00	0.6318
54.20	0.6332
54.50	0.6348
54.70	0.6348
55.00	0.6381
55.20	0.6394
55.50	0.6413
55.70	0.6432
56.00	0.6451
56.20	0.6467
56.50	0.6491
56.70	0.6491
57.00	0.6523
57.20	0.6537
57.50	0.6557
57.70	0.6572
58.00	0.6594
58.20	0.6613
58.50	0.6629
58.70	0.6629
59.00	0.6663
59.20	0.6679
59.50	0.6699
59.70	0.6711
60.00	0.6732
60.20	0.6744
60.50	0.6758
60.70	0.6758
61.00	0.6793
61.20	0.6799
61.50	0.6813
61.70	0.6826
62.00	0.6837
62.20	0.6846
62.50	0.6861
62.70	0.6861
63.00	0.6878
63.20	0.6885
63.50	0.6893
63.70	0.6902
64.00	0.6908
64.20	0.6916
64.40	0.6920
64.70	0.6928
64.90	0.6932
65.20	0.6940
65.40	0.6945
65.70	0.6949
65.90	0.6952
66.20	0.6958
66.40	0.6962
66.70	0.6965
66.90	0.6970
67.20	0.6973
67.40	0.6975
67.70	0.6979
67.90	0.6979
68.20	0.6984
68.40	0.6988
68.70	0.6989
68.90	0.6992
69.20	0.6994
69.40	0.6996
69.70	0.6999
69.90	0.6999
70.20	0.7002
70.40	0.7004
70.70	0.7006
70.90	0.7007
71.20	0.7011
71.40	0.7011
71.70	0.7011
71.90	0.7011
72.20	0.7015
72.40	0.7017
72.70	0.7018
72.90	0.7019
73.20	0.7020
73.40	0.7021
73.70	0.7025
73.90	0.7025
74.20	0.7027
74.40	0.7027
74.70	0.7031
74.90	0.7030
75.20	0.7032
75.40	0.7034
75.70	0.7036
75.90	0.7036
76.20	0.7035
76.40	0.7036
76.70	0.7037
76.90	0.7037
77.20	0.7039
77.40	0.7041
77.70	0.7041
77.90	0.7041
78.20	0.7045
78.40	0.7044
78.70	0.7045
78.90	0.7047
79.20	0.7050
79.40	0.7052
79.70	0.7055
79.90	0.7055
80.20	0.7059
80.40	0.7060
80.70	0.7063
80.90	0.7065
81.20	0.7071
81.40	0.7070
81.70	0.7073
81.90	0.7073
82.20	0.7076
82.40	0.7078
82.70	0.7079
82.90	0.7078
83.20	0.7081
83.40	0.7083
83.70	0.7084
83.90	0.7084
84.20	0.7088
84.40	0.7088
84.70	0.7090
84.90	0.7091
85.20	0.7093
85.40	0.7094
85.70	0.7094
85.90	0.7094
86.20	0.7096
86.40	0.7097
86.70	0.7099
86.90	0.7101
87.20	0.7100
87.40	0.7100
87.70	0.7103
87.90	0.7103
88.20	0.7111
88.40	0.7113
88.70	0.7119
88.90	0.7121
89.20	0.7121
89.40	0.7123
89.70	0.7124
89.90	0.7124
90.20	0.7125
90.40	0.7125
90.70	0.7124
90.90	0.7124
91.20	0.7128
91.40	0.7125
91.70	0.7125
91.90	0.7125
92.20	0.7126
92.40	0.7126
92.70	0.7127
92.90	0.7125
93.20	0.7129
93.40	0.7127
93.70	0.7128
93.90	0.7128
94.20	0.7128
94.40	0.7128

File: 20190805_pH5.4hsnb_scaf2_tga_gc_2.txt
Date : 9/5/2019	Time : 20:01:13
C:\UVWINLAB\DNA01U1.SP
28.00	0.6610
28.20	0.6611
28.40	0.6610
28.60	0.6613
28.80	0.6611
29.00	0.6613
29.20	0.6615
29.40	0.6614
29.60	0.6614
29.80	0.6614
30.00	0.6616
30.20	0.6616
30.40	0.6615
30.60	0.6616
30.80	0.6617
31.00	0.6619
31.20	0.6621
31.40	0.6622
31.60	0.6622
31.80	0.6623
32.00	0.6623
32.20	0.6624
32.50	0.6627
32.70	0.6628
33.00	0.6629
33.20	0.6630
33.50	0.6632
33.70	0.6632
34.00	0.6633
34.20	0.6634
34.50	0.6634
34.70	0.6636
35.00	0.6635
35.20	0.6636
35.50	0.6640
35.70	0.6641
36.00	0.6642
36.20	0.6641
36.50	0.6646
36.70	0.6647
37.00	0.6649
37.20	0.6650
37.50	0.6655
37.70	0.6654
38.00	0.6657
38.20	0.6659
38.50	0.6660
38.70	0.6663
39.00	0.6666
39.20	0.6666
39.50	0.6670
39.70	0.6668
40.00	0.6671
40.20	0.6674
40.50	0.6678
40.70	0.6680
41.00	0.6683
41.20	0.6685
41.50	0.6690
41.70	0.6693
42.00	0.6697
42.20	0.6699
42.50	0.6702
42.70	0.6705
43.00	0.6712
43.20	0.6712
43.50	0.6717
43.70	0.6719
44.00	0.6724
44.20	0.6730
44.50	0.6735
44.70	0.6737
45.00	0.6745
45.20	0.6749
45.50	0.6754
45.70	0.6754
46.00	0.6765
46.20	0.6768
46.50	0.6775
46.70	0.6781
47.00	0.6789
47.20	0.6794
47.50	0.6803
47.70	0.6803
48.00	0.6817
48.20	0.6822
48.50	0.6835
48.70	0.6841
49.00	0.6852
49.20	0.6859
49.50	0.6870
49.70	0.6870
50.00	0.6890
50.20	0.6897
50.50	0.6913
50.70	0.6923
51.00	0.6938
51.20	0.6946
51.50	0.6961
51.70	0.6961
52.00	0.6988
52.20	0.6997
52.50	0.7014
52.70	0.7027
53.00	0.7046
53.20	0.7054
53.50	0.7073
53.70	0.7073
54.00	0.7107
54.20	0.7122
54.50	0.7139
54.70	0.7157
55.00	0.7173
55.20	0.7187
55.50	0.7211
55.70	0.7211
56.00	0.7247
56.20	0.7263
56.50	0.7280
56.70	0.7298
57.00	0.7318
57.20	0.7332
57.50	0.7349
57.70	0.7349
58.00	0.7385
58.20	0.7399
58.50	0.7415
58.70	0.7428
59.00	0.7444
59.20	0.7454
59.50	0.7475
59.70	0.7475
60.00	0.7499
60.20	0.7508
60.50	0.7525
60.70	0.7536
61.00	0.7549
61.20	0.7556
61.50	0.7568
61.70	0.7568
62.00	0.7583
62.20	0.7590
62.50	0.7601
62.70	0.7607
63.00	0.7616
63.20	0.7621
63.50	0.7628
63.70	0.7628
64.00	0.7637
64.20	0.7643
64.40	0.7646
64.70	0.7653
64.90	0.7655
65.20	0.7662
65.40	0.7662
65.70	0.7666
65.90	0.7671
66.20	0.7693
66.40	0.7694
66.70	0.7698
66.90	0.7711
67.20	0.7705
67.40	0.7703
67.70	0.7711
67.90	0.7709
68.20	0.7709
68.40	0.7716
68.70	0.7718
68.90	0.7716
69.20	0.7722
69.40	0.7721
69.70	0.7722
69.90	0.7725
70.20	0.7726
70.40	0.7729
70.70	0.7732
70.90	0.7734
71.20	0.7737
71.40	0.7740
71.70	0.7742
71.90	0.7747
72.20	0.7747
72.40	0.7749
72.70	0.7750
72.90	0.7750
73.20	0.7753
73.40	0.7755
73.70	0.7757
73.90	0.7757
74.20	0.7761
74.40	0.7766
74.70	0.7767
74.90	0.7767
75.20	0.7769
75.40	0.7769
75.70	0.7777
75.90	0.7781
76.20	0.7781
76.40	0.7781
76.70	0.7783
76.90	0.7783
77.20	0.7788
77.40	0.7788
77.70	0.7790
77.90	0.7792
78.20	0.7794
78.40	0.7797
78.70	0.7800
78.90	0.7800
79.20	0.7802
79.40	0.7802
79.70	0.7805
79.90	0.7808
80.20	0.7808
80.40	0.7810
80.70	0.7811
80.90	0.7811
81.20	0.7813
81.40	0.7813
81.70	0.7817
81.90	0.7818
82.20	0.7817
82.40	0.7820
82.70	0.7823
82.90	0.7823
83.20	0.7824
83.40	0.7824
83.70	0.7826
83.90	0.7827
84.20	0.7829
84.40	0.7833
84.70	0.7836
84.90	0.7836
85.20	0.7837
85.40	0.7840
85.70	0.7839
85.90	0.7843
86.20	0.7843
86.40	0.7843
86.70	0.7845
86.90	0.7845
87.20	0.7849
87.40	0.7850
87.70	0.7852
87.90	0.7854
88.20	0.7855
88.40	0.7857
88.70	0.7858
88.90	0.7858
89.20	0.7862
89.40	0.7864
89.70	0.7865
89.90	0.7865
90.20	0.7870
90.40	0.7870
90.70	0.7873
90.90	0.7873
91.20	0.7875
91.40	0.7874
91.70	0.7876
91.90	0.7879

File: 20190805_pH5.4hsnb_scaf2_tga_gc_3.txt
Date : 9/16/2019	Time : 10:50:42
C:\UVWINLAB\DNA01U1.SP
25.00	0.6100
25.20	0.6101
25.40	0.6101
25.60	0.6102
25.80	0.6102
26.00	0.6101
26.20	0.6102
26.40	0.6103
26.60	0.6103
26.80	0.6105
27.00	0.6103
27.20	0.6104
27.40	0.6104
27.60	0.6105
27.80	0.6104
28.00	0.6105
28.20	0.6104
28.40	0.6105
28.60	0.6105
28.80	0.6105
29.00	0.6106
29.20	0.6106
29.40	0.6107
29.60	0.6108
29.80	0.6107
30.00	0.6109
30.20	0.6110
30.40	0.6110
30.60	0.6111
30.80	0.6111
31.00	0.6113
31.20	0.6109
31.40	0.6112
31.60	0.6112
31.80	0.6114
32.00	0.6116
32.20	0.6117
32.50	0.6119
32.70	0.6118
33.00	0.6120
33.20	0.6119
33.50	0.6118
33.70	0.6120
34.00	0.6121
34.20	0.6122
34.50	0.6124
34.70	0.6126
35.00	0.6127
35.20	0.6130
35.50	0.6130
35.70	0.6130
36.00	0.6132
36.20	0.6132
36.50	0.6134
36.70	0.6137
37.00	0.6137
37.20	0.6139
37.50	0.6139
37.70	0.6142
38.00	0.6144
38.20	0.6145
38.50	0.6148
38.70	0.6148
39.00	0.6150
39.20	0.6152
39.50	0.6154
39.70	0.6155
40.00	0.6158
40.20	0.6160
40.50	0.6164
40.70	0.6165
41.00	0.6169
41.20	0.6171
41.50	0.6171
41.70	0.6174
42.00	0.6179
42.20	0.6181
42.50	0.6186
42.70	0.6187
43.00	0.6190
43.20	0.6195
43.50	0.6200
43.70	0.6202
44.00	0.6206
44.20	0.6210
44.50	0.6213
44.70	0.6218
45.00	0.6222
45.20	0.6226
45.50	0.6235
45.70	0.6235
46.00	0.6244
46.20	0.6245
46.50	0.6250
46.70	0.6256
47.00	0.6264
47.20	0.6267
47.50	0.6275
47.70	0.6275
48.00	0.6289
48.20	0.6294
48.50	0.6301
48.70	0.6307
49.00	0.6315
49.20	0.6323
49.50	0.6334
49.70	0.6334
50.00	0.6350
50.20	0.6358
50.50	0.6369
50.70	0.6378
51.00	0.6392
51.20	0.6400
51.50	0.6411
51.70	0.6411
52.00	0.6435
52.20	0.6447
52.50	0.6462
52.70	0.6472
53.00	0.6491
53.20	0.6500
53.50	0.6516
53.70	0.6516
54.00	0.6546
54.20	0.6559
54.50	0.6579
54.70	0.6587
55.00	0.6609
55.20	0.6622
55.50	0.6641
55.70	0.6641
56.00	0.6676
56.20	0.6689
56.50	0.6707
56.70	0.6725
57.00	0.6745
57.20	0.6759
57.50	0.6781
57.70	0.6781
58.00	0.6815
58.20	0.6830
58.50	0.6849
58.70	0.6864
59.00	0.6884
59.20	0.6896
59.50	0.6914
59.70	0.6914
60.00	0.6946
60.20	0.6957
60.50	0.6972
60.70	0.6988
61.00	0.7000
61.20	0.7012
61.50	0.7024
61.70	0.7024
62.00	0.7048
62.20	0.7055
62.50	0.7069
62.70	0.7075
63.00	0.7084
63.20	0.7090
63.50	0.7105
63.70	0.7105
64.00	0.7117
64.20	0.7125
64.40	0.7126
64.70	0.7135
64.90	0.7140
65.20	0.7146
65.40	0.7151
65.70	0.7156
65.90	0.7160
66.20	0.7164
66.40	0.7168
66.70	0.7174
66.90	0.7176
67.20	0.7181
67.40	0.7182
67.70	0.7186
67.90	0.7190
68.20	0.7192
68.40	0.7195
68.70	0.7198
68.90	0.7201
69.20	0.7206
69.40	0.7208
69.70	0.7209
69.90	0.7212
70.20	0.7216
70.40	0.7218
70.70	0.7219
70.90	0.7221
71.20	0.7226
71.40	0.7226
71.70	0.7230
71.90	0.7230
72.20	0.7234
72.40	0.7234
72.70	0.7235
72.90	0.7235
73.20	0.7240
73.40	0.7240
73.70	0.7244
73.90	0.7245
74.20	0.7249
74.40	0.7251
74.70	0.7252
74.90	0.7252
75.20	0.7255
75.40	0.7257
75.70	0.7260
75.90	0.7262
76.20	0.7263
76.40	0.7264
76.70	0.7268
76.90	0.7268
77.20	0.7269
77.40	0.7272
77.70	0.7275
77.90	0.7275
78.20	0.7278
78.40	0.7278
78.70	0.7279
78.90	0.7279
79.20	0.7281
79.40	0.7283
79.70	0.7286
79.90	0.7288
80.20	0.7289
80.40	0.7291
80.70	0.7292
80.90	0.7292
81.20	0.7298
81.40	0.7298
81.70	0.7300
81.90	0.7301
82.20	0.7302
82.40	0.7304
82.70	0.7305
82.90	0.7305
83.20	0.7309
83.40	0.7309
83.70	0.7315
83.90	0.7315
84.20	0.7318
84.40	0.7320
84.70	0.7319
84.90	0.7319
85.20	0.7322
85.40	0.7321
85.70	0.7324
85.90	0.7325
86.20	0.7327
86.40	0.7328
86.70	0.7327
86.90	0.7327
87.20	0.7332
87.40	0.7333
87.70	0.7335