Folder: delta-melt-data/figure9/perkinelmer_uv/scaf2_tga_m1gc_ph5.4hsnb

Note: figure9/perkinelmer_uv/readme
m1g_25c_new_at.csv = m1g_25c_new.csv with the middle g bp in context column changed to a

File: scaf2_m1gc_tga_pH5.4hsnb_1.txt
Date : 8/9/2019	Time : 22:36:42
C:\UVWINLAB\CG151U1.SP
15.00	0.5773
15.20	0.5770
15.40	0.5769
15.60	0.5769
15.80	0.5770
16.00	0.5770
16.20	0.5771
16.40	0.5770
16.60	0.5770
16.80	0.5771
17.00	0.5773
17.20	0.5774
17.40	0.5773
17.60	0.5776
17.80	0.5776
18.00	0.5779
18.20	0.5780
18.40	0.5782
18.60	0.5781
18.80	0.5782
19.00	0.5784
19.20	0.5784
19.40	0.5786
19.60	0.5787
19.80	0.5789
20.00	0.5790
20.20	0.5792
20.40	0.5793
20.60	0.5796
20.80	0.5798
21.00	0.5798
21.20	0.5801
21.40	0.5801
21.60	0.5803
21.80	0.5805
22.00	0.5805
22.20	0.5808
22.40	0.5809
22.60	0.5810
22.80	0.5812
23.00	0.5815
23.20	0.5818
23.40	0.5819
23.60	0.5823
23.80	0.5825
24.00	0.5827
24.20	0.5828
24.40	0.5831
24.60	0.5832
24.80	0.5835
25.00	0.5837
25.20	0.5836
25.40	0.5840
25.60	0.5843
25.80	0.5845
26.00	0.5846
26.20	0.5849
26.40	0.5851
26.60	0.5853
26.80	0.5855
27.00	0.5859
27.20	0.5861
27.40	0.5865
27.60	0.5868
27.80	0.5870
28.00	0.5873
28.20	0.5878
28.40	0.5880
28.60	0.5883
28.80	0.5884
29.00	0.5888
29.20	0.5891
29.40	0.5893
29.60	0.5898
29.80	0.5903
30.00	0.5907
30.20	0.5910
30.40	0.5913
30.60	0.5916
30.80	0.5919
31.00	0.5923
31.20	0.5928
31.40	0.5932
31.60	0.5936
31.80	0.5940
32.00	0.5944
32.20	0.5950
32.50	0.5956
32.70	0.5963
33.00	0.5969
33.20	0.5974
33.50	0.5981
33.70	0.5985
34.00	0.5996
34.20	0.5999
34.50	0.6007
34.70	0.6012
35.00	0.6021
35.20	0.6029
35.50	0.6039
35.70	0.6043
36.00	0.6052
36.20	0.6057
36.50	0.6070
36.70	0.6077
37.00	0.6088
37.20	0.6095
37.50	0.6107
37.70	0.6111
38.00	0.6124
38.20	0.6127
38.50	0.6138
38.70	0.6146
39.00	0.6161
39.20	0.6170
39.50	0.6182
39.70	0.6191
40.00	0.6204
40.20	0.6216
40.50	0.6231
40.70	0.6231
41.00	0.6255
41.20	0.6263
41.50	0.6282
41.70	0.6288
42.00	0.6302
42.20	0.6311
42.50	0.6326
42.70	0.6326
43.00	0.6349
43.20	0.6359
43.50	0.6373
43.70	0.6385
44.00	0.6397
44.20	0.6406
44.50	0.6420
44.70	0.6420
45.00	0.6444
45.20	0.6454
45.50	0.6464
45.70	0.6475
46.00	0.6487
46.20	0.6494
46.50	0.6509
46.70	0.6509
47.00	0.6526
47.20	0.6533
47.50	0.6543
47.70	0.6551
48.00	0.6560
48.20	0.6569
48.50	0.6577
48.70	0.6577
49.00	0.6593
49.20	0.6598
49.50	0.6604
49.70	0.6614
50.00	0.6620
50.20	0.6625
50.50	0.6633
50.70	0.6633
51.00	0.6646
51.20	0.6655
51.50	0.6660
51.70	0.6667
52.00	0.6670
52.20	0.6673
52.50	0.6682
52.70	0.6682
53.00	0.6688
53.20	0.6694
53.50	0.6699
53.70	0.6701
54.00	0.6708
54.20	0.6712
54.50	0.6715
54.70	0.6715
55.00	0.6725
55.20	0.6728
55.50	0.6731
55.70	0.6736
56.00	0.6740
56.20	0.6744
56.50	0.6747
56.70	0.6747
57.00	0.6753
57.20	0.6756
57.50	0.6764
57.70	0.6766
58.00	0.6768
58.20	0.6773
58.50	0.6775
58.70	0.6775
59.00	0.6781
59.20	0.6783
59.50	0.6785
59.70	0.6789
60.00	0.6794
60.20	0.6795
60.50	0.6800
60.70	0.6800
61.00	0.6805
61.20	0.6809
61.50	0.6811
61.70	0.6814
62.00	0.6815
62.20	0.6817
62.50	0.6822
62.70	0.6822
63.00	0.6827
63.20	0.6831
63.50	0.6835
63.70	0.6837
64.00	0.6840
64.20	0.6841
64.40	0.6843
64.70	0.6847
64.90	0.6846
65.20	0.6852
65.40	0.6853
65.70	0.6858
65.90	0.6860
66.20	0.6863
66.40	0.6863
66.70	0.6865
66.90	0.6868
67.20	0.6871
67.40	0.6872
67.70	0.6877
67.90	0.6877
68.20	0.6881
68.40	0.6886
68.70	0.6887
68.90	0.6888
69.20	0.6889
69.40	0.6891
69.70	0.6895
69.90	0.6895
70.20	0.6898
70.40	0.6899
70.70	0.6901
70.90	0.6905
71.20	0.6908
71.40	0.6909
71.70	0.6910
71.90	0.6910
72.20	0.6914
72.40	0.6914
72.70	0.6916
72.90	0.6919
73.20	0.6922
73.40	0.6923
73.70	0.6926
73.90	0.6926
74.20	0.6926
74.40	0.6929
74.70	0.6931
74.90	0.6931

File: scaf2_m1gc_tga_pH5.4hsnb_2.txt
Date : 9/25/2019	Time : 16:25:19
C:\UVWINLAB\DNA41U1.SP
15.00	0.5815
15.20	0.5818
15.40	0.5818
15.60	0.5818
15.80	0.5820
16.00	0.5821
16.20	0.5822
16.40	0.5825
16.60	0.5825
16.80	0.5828
17.00	0.5829
17.20	0.5830
17.40	0.5831
17.60	0.5833
17.80	0.5833
18.00	0.5833
18.20	0.5837
18.40	0.5838
18.60	0.5840
18.80	0.5843
19.00	0.5842
19.20	0.5845
19.40	0.5846
19.60	0.5848
19.80	0.5850
20.00	0.5851
20.20	0.5851
20.40	0.5854
20.60	0.5856
20.80	0.5858
21.00	0.5859
21.20	0.5860
21.40	0.5863
21.60	0.5864
21.80	0.5866
22.00	0.5867
22.20	0.5870
22.40	0.5873
22.60	0.5875
22.80	0.5876
23.00	0.5879
23.20	0.5883
23.40	0.5884
23.60	0.5886
23.80	0.5888
24.00	0.5891
24.20	0.5893
24.40	0.5896
24.60	0.5897
24.80	0.5900
25.00	0.5903
25.20	0.5904
25.40	0.5907
25.60	0.5908
25.80	0.5910
26.00	0.5912
26.20	0.5914
26.40	0.5916
26.60	0.5917
26.80	0.5922
27.00	0.5924
27.20	0.5926
27.40	0.5929
27.60	0.5932
27.80	0.5935
28.00	0.5938
28.20	0.5940
28.40	0.5942
28.60	0.5947
28.80	0.5950
29.00	0.5954
29.20	0.5958
29.40	0.5961
29.60	0.5966
29.80	0.5967
30.00	0.5973
30.20	0.5977
30.40	0.5982
30.60	0.5984
30.80	0.5988
31.00	0.5993
31.20	0.5998
31.40	0.6001
31.60	0.6007
31.80	0.6011
32.00	0.6016
32.20	0.6023
32.50	0.6030
32.70	0.6035
33.00	0.6041
33.20	0.6048
33.50	0.6056
33.70	0.6060
34.00	0.6070
34.20	0.6075
34.50	0.6083
34.70	0.6091
35.00	0.6097
35.20	0.6106
35.50	0.6114
35.70	0.6119
36.00	0.6130
36.20	0.6137
36.50	0.6147
36.70	0.6156
37.00	0.6166
37.20	0.6174
37.50	0.6185
37.70	0.6194
38.00	0.6203
38.20	0.6212
38.50	0.6224
38.70	0.6232
39.00	0.6245
39.20	0.6253
39.50	0.6266
39.70	0.6273
40.00	0.6285
40.20	0.6295
40.50	0.6310
40.70	0.6310
41.00	0.6335
41.20	0.6342
41.50	0.6353
41.70	0.6365
42.00	0.6378
42.20	0.6383
42.50	0.6399
42.70	0.6399
43.00	0.6419
43.20	0.6428
43.50	0.6441
43.70	0.6445
44.00	0.6453
44.20	0.6460
44.50	0.6476
44.70	0.6476
45.00	0.6503
45.20	0.6512
45.50	0.6522
45.70	0.6529
46.00	0.6542
46.20	0.6551
46.50	0.6560
46.70	0.6560
47.00	0.6576
47.20	0.6581
47.50	0.6590
47.70	0.6597
48.00	0.6603
48.20	0.6612
48.50	0.6620
48.70	0.6620
49.00	0.6634
49.20	0.6638
49.50	0.6645
49.70	0.6652
50.00	0.6659
50.20	0.6662
50.50	0.6668
50.70	0.6668
51.00	0.6680
51.20	0.6684
51.50	0.6691
51.70	0.6693
52.00	0.6699
52.20	0.6702
52.50	0.6708
52.70	0.6708
53.00	0.6719
53.20	0.6721
53.50	0.6728
53.70	0.6729
54.00	0.6734
54.20	0.6739
54.50	0.6742
54.70	0.6742
55.00	0.6749
55.20	0.6754
55.50	0.6756
55.70	0.6759
56.00	0.6763
56.20	0.6767
56.50	0.6770
56.70	0.6770
57.00	0.6780
57.20	0.6781
57.50	0.6786
57.70	0.6785
58.00	0.6791
58.20	0.6793
58.50	0.6799
58.70	0.6799
59.00	0.6807
59.20	0.6809
59.50	0.6812
59.70	0.6817
60.00	0.6819
60.20	0.6818
60.50	0.6820
60.70	0.6820
61.00	0.6830
61.20	0.6833
61.50	0.6834
61.70	0.6835
62.00	0.6838
62.20	0.6841
62.50	0.6845
62.70	0.6845
63.00	0.6853
63.20	0.6856
63.50	0.6859
63.70	0.6860
64.00	0.6862
64.20	0.6866
64.40	0.6867
64.70	0.6868
64.90	0.6874
65.20	0.6881
65.40	0.6886
65.70	0.6888
65.90	0.6892
66.20	0.6895
66.40	0.6896
66.70	0.6895
66.90	0.6897
67.20	0.6900
67.40	0.6901
67.70	0.6904
67.90	0.6904
68.20	0.6912
68.40	0.6914
68.70	0.6916
68.90	0.6918
69.20	0.6922
69.40	0.6923
69.70	0.6926
69.90	0.6926
70.20	0.6929
70.40	0.6930
70.70	0.6935
70.90	0.6937
71.20	0.6938
71.40	0.6940
71.70	0.6942
71.90	0.6942
72.20	0.6945
72.40	0.6946
72.70	0.6949
72.90	0.6952
73.20	0.6954
73.40	0.6955
73.70	0.6957
73.90	0.6957
74.20	0.6961
74.40	0.6963
74.70	0.6966
74.90	0.6966
75.20	0.6966

File: scaf2_m1gc_tga_pH5.4hsnb_3.txt
Date : 9/25/2019	Time : 18:18:39
C:\UVWINLAB\DNA61U1.SP
15.00	0.5860
15.20	0.5862
15.40	0.5860
15.60	0.5861
15.80	0.5862
16.00	0.5864
16.20	0.5866
16.40	0.5866
16.60	0.5867
16.80	0.5868
17.00	0.5868
17.20	0.5871
17.40	0.5872
17.60	0.5875
17.80	0.5875
18.00	0.5877
18.20	0.5877
18.40	0.5879
18.60	0.5881
18.80	0.5881
19.00	0.5884
19.20	0.5886
19.40	0.5886
19.60	0.5887
19.80	0.5891
20.00	0.5891
20.20	0.5894
20.40	0.5897
20.60	0.5898
20.80	0.5898
21.00	0.5901
21.20	0.5901
21.40	0.5903
21.60	0.5906
21.80	0.5907
22.00	0.5909
22.20	0.5912
22.40	0.5913
22.60	0.5916
22.80	0.5917
23.00	0.5919
23.20	0.5921
23.40	0.5923
23.60	0.5926
23.80	0.5928
24.00	0.5932
24.20	0.5933
24.40	0.5935
24.60	0.5937
24.80	0.5941
25.00	0.5942
25.20	0.5946
25.40	0.5948
25.60	0.5950
25.80	0.5952
26.00	0.5956
26.20	0.5958
26.40	0.5962
26.60	0.5964
26.80	0.5968
27.00	0.5970
27.20	0.5971
27.40	0.5978
27.60	0.5980
27.80	0.5982
28.00	0.5985
28.20	0.5989
28.40	0.5991
28.60	0.5993
28.80	0.5996
29.00	0.6001
29.20	0.6005
29.40	0.6009
29.60	0.6012
29.80	0.6016
30.00	0.6021
30.20	0.6024
30.40	0.6028
30.60	0.6031
30.80	0.6037
31.00	0.6039
31.20	0.6043
31.40	0.6047
31.60	0.6052
31.80	0.6057
32.00	0.6063
32.20	0.6067
32.50	0.6074
32.70	0.6079
33.00	0.6087
33.20	0.6090
33.50	0.6098
33.70	0.6106
34.00	0.6114
34.20	0.6120
34.50	0.6128
34.70	0.6136
35.00	0.6144
35.20	0.6150
35.50	0.6162
35.70	0.6165
36.00	0.6175
36.20	0.6183
36.50	0.6192
36.70	0.6201
37.00	0.6212
37.20	0.6219
37.50	0.6231
37.70	0.6241
38.00	0.6251
38.20	0.6260
38.50	0.6268
38.70	0.6276
39.00	0.6291
39.20	0.6299
39.50	0.6311
39.70	0.6317
40.00	0.6332
40.20	0.6341
40.50	0.6356
40.70	0.6356
41.00	0.6379
41.20	0.6387
41.50	0.6399
41.70	0.6407
42.00	0.6424
42.20	0.6433
42.50	0.6443
42.70	0.6443
43.00	0.6466
43.20	0.6474
43.50	0.6487
43.70	0.6493
44.00	0.6508
44.20	0.6514
44.50	0.6526
44.70	0.6526
45.00	0.6544
45.20	0.6550
45.50	0.6565
45.70	0.6570
46.00	0.6582
46.20	0.6587
46.50	0.6597
46.70	0.6597
47.00	0.6615
47.20	0.6620
47.50	0.6631
47.70	0.6640
48.00	0.6648
48.20	0.6651
48.50	0.6652
48.70	0.6652
49.00	0.6666
49.20	0.6671
49.50	0.6683
49.70	0.6688
50.00	0.6695
50.20	0.6699
50.50	0.6707
50.70	0.6707
51.00	0.6718
51.20	0.6720
51.50	0.6728
51.70	0.6731
52.00	0.6736
52.20	0.6740
52.50	0.6743
52.70	0.6743
53.00	0.6753
53.20	0.6758
53.50	0.6764
53.70	0.6766
54.00	0.6769
54.20	0.6774
54.50	0.6782
54.70	0.6782
55.00	0.6789
55.20	0.6788
55.50	0.6793
55.70	0.6794
56.00	0.6798
56.20	0.6802
56.50	0.6807
56.70	0.6807
57.00	0.6815
57.20	0.6816
57.50	0.6820
57.70	0.6823
58.00	0.6829
58.20	0.6830
58.50	0.6834
58.70	0.6834
59.00	0.6839
59.20	0.6841
59.50	0.6843
59.70	0.6845
60.00	0.6850
60.20	0.6853
60.50	0.6856
60.70	0.6856
61.00	0.6860
61.20	0.6862
61.50	0.6866
61.70	0.6868
62.00	0.6870
62.20	0.6872
62.50	0.6875
62.70	0.6875
63.00	0.6880
63.20	0.6883
63.50	0.6887
63.70	0.6887
64.00	0.6894
64.20	0.6895
64.40	0.6899
64.70	0.6900
64.90	0.6902
65.20	0.6906
65.40	0.6906
65.70	0.6908
65.90	0.6912
66.20	0.6915
66.40	0.6916
66.70	0.6919
66.90	0.6922
67.20	0.6923
67.40	0.6926
67.70	0.6928
67.90	0.6928
68.20	0.6932
68.40	0.6934
68.70	0.6937
68.90	0.6937
69.20	0.6941
69.40	0.6942
69.70	0.6945
69.90	0.6945
70.20	0.6950
70.40	0.6950
70.70	0.6953
70.90	0.6955
71.20	0.6956
71.40	0.6958
71.70	0.6960
71.90	0.6960
72.20	0.6961
72.40	0.6965
72.70	0.6967
72.90	0.6969
73.20	0.6969
73.40	0.6974
73.70	0.6973
73.90	0.6973
74.20	0.6977
74.40	0.6980
74.70	0.6980